path,is_control,slope,noise,corrans,trials.thisRepN,trials.thisTrialN,trials.thisN,trials.thisIndex,instruct_text.started,instruct_text.stopped,ready.keys,ready.rt,ready.started,ready.stopped,timer1.started,timer1.stopped,timer2.started,timer2.stopped,timer3.started,timer3.stopped,timergo.started,timergo.stopped,image.started,image.stopped,text.started,text.stopped,key_resp.keys,key_resp.rt,key_resp.started,key_resp.stopped,text_2.started,text_2.stopped,key_resp_2.keys,key_resp_2.rt,key_resp_2.started,key_resp_2.stopped,participant,session,date,expName,psychopyVersion,frameRate,
,,,,,,,,,9.789318600000115,None,return,1.0186940999992657,9.789318600000115,None,,,,,,,,,,,,,,,,,,,,,,,,001,2020_Dec_05_1407,experiment,2020.2.8,60.038316453514405,
dataset/116.png,False,-0.1,0.075,down,0,0,0,116,,,,,,,10.82543920000171,11.825738400002592,11.808928600003128,12.809191000000283,12.809191000000283,13.808993800004828,13.808993800004828,None,15.389112400000158,None,None,None,down,0.7365213000011863,15.389112400000158,None,,,,,,,,001,2020_Dec_05_1407,experiment,2020.2.8,60.038316453514405,
dataset/103.png,False,0.05,0.3,up,0,1,1,103,,,,,,,,,,,,,,,16.66016920000402,None,None,None,up,0.6000367999949958,16.66016920000402,None,,,,,,,,001,2020_Dec_05_1407,experiment,2020.2.8,60.038316453514405,
dataset/58.png,False,0.05,0.025,up,0,2,2,58,,,,,,,,,,,,,,,17.79362730000139,None,None,None,up,0.5981194000050891,17.79362730000139,None,,,,,,,,001,2020_Dec_05_1407,experiment,2020.2.8,60.038316453514405,
dataset/153.png,False,-0.1,0.3,down,0,3,3,153,,,,,,,,,,,,,,,18.910172000003513,None,None,None,down,0.5302687000003061,18.910172000003513,None,,,,,,,,001,2020_Dec_05_1407,experiment,2020.2.8,60.038316453514405,
dataset/3.png,False,0.01,0.0,up,0,4,4,3,,,,,,,,,,,,,,,19.976993900003436,None,None,None,up,0.7578375000011874,19.976993900003436,None,,,,,,,,001,2020_Dec_05_1407,experiment,2020.2.8,60.038316453514405,
dataset/135.png,False,0.1,0.175,up,0,5,5,135,,,,,,,,,,,,,,,21.276991800004907,None,None,None,up,0.7858144999991055,21.276991800004907,None,,,,,,,,001,2020_Dec_05_1407,experiment,2020.2.8,60.038316453514405,
dataset/117.png,False,-0.1,0.075,down,0,6,6,117,,,,,,,,,,,,,,,22.610032600001432,None,None,None,down,0.5092384999952628,22.610032600001432,None,,,,,,,,001,2020_Dec_05_1407,experiment,2020.2.8,60.038316453514405,
dataset/48.png,False,-0.01,0.3,down,0,7,7,48,,,,,,,,,,,,,,,23.660030999999435,None,None,None,up,0.635758700002043,23.660030999999435,None,,,,,,,,001,2020_Dec_05_1407,experiment,2020.2.8,60.038316453514405,
dataset/148.png,False,-0.1,0.275,down,0,8,8,148,,,,,,,,,,,,,,,24.84345630000462,None,None,None,down,0.6636899000004632,24.84345630000462,None,,,,,,,,001,2020_Dec_05_1407,experiment,2020.2.8,60.038316453514405,
dataset/51.png,False,0.01,0.3,up,0,9,9,51,,,,,,,,,,,,,,,26.04358350000257,None,None,None,down,0.804301399999531,26.04358350000257,None,,,,,,,,001,2020_Dec_05_1407,experiment,2020.2.8,60.038316453514405,
dataset/70.png,False,0.05,0.1,up,0,10,10,70,,,,,,,,,,,,,,,27.39355020000221,None,None,None,up,0.6581120999981067,27.39355020000221,None,,,,,,,,001,2020_Dec_05_1407,experiment,2020.2.8,60.038316453514405,
dataset/27.png,False,0.01,0.15,up,0,11,11,27,,,,,,,,,,,,,,,28.59353380000539,None,None,None,up,0.7865556000033394,28.59353380000539,None,,,,,,,,001,2020_Dec_05_1407,experiment,2020.2.8,60.038316453514405,
dataset/41.png,False,-0.01,0.25,down,0,12,12,41,,,,,,,,,,,,,,,29.9268527000022,None,None,None,up,0.6367390000013984,29.9268527000022,None,,,,,,,,001,2020_Dec_05_1407,experiment,2020.2.8,60.038316453514405,
dataset/123.png,False,0.1,0.1,up,0,13,13,123,,,,,,,,,,,,,,,31.10994880000362,None,None,None,up,0.7577285000006668,31.10994880000362,None,,,,,,,,001,2020_Dec_05_1407,experiment,2020.2.8,60.038316453514405,
dataset/162.png,True,0.0,0.3,none,0,14,14,162,,,,,,,,,,,,,,,32.40985550000187,None,None,None,up,0.8571727000016836,32.40985550000187,None,,,,,,,,001,2020_Dec_05_1407,experiment,2020.2.8,60.038316453514405,
dataset/145.png,False,-0.1,0.25,down,0,15,15,145,,,,,,,,,,,,,,,33.809871600002225,None,None,None,down,0.5617948999934015,33.809871600002225,None,,,,,,,,001,2020_Dec_05_1407,experiment,2020.2.8,60.038316453514405,
dataset/125.png,False,-0.1,0.125,down,0,16,16,125,,,,,,,,,,,,,,,34.909782599999744,None,None,None,down,0.547017800003232,34.909782599999744,None,,,,,,,,001,2020_Dec_05_1407,experiment,2020.2.8,60.038316453514405,
dataset/95.png,False,0.05,0.25,up,0,17,17,95,,,,,,,,,,,,,,,35.99313610000536,None,None,None,up,0.5287293000001227,35.99313610000536,None,,,,,,,,001,2020_Dec_05_1407,experiment,2020.2.8,60.038316453514405,
dataset/142.png,False,0.1,0.225,up,0,18,18,142,,,,,,,,,,,,,,,37.05983360000391,None,None,None,up,0.5366372999997111,37.05983360000391,None,,,,,,,,001,2020_Dec_05_1407,experiment,2020.2.8,60.038316453514405,
dataset/76.png,False,-0.05,0.15,down,0,19,19,76,,,,,,,,,,,,,,,38.143325700002606,None,None,None,down,0.46251309999934165,38.143325700002606,None,,,,,,,,001,2020_Dec_05_1407,experiment,2020.2.8,60.038316453514405,
dataset/46.png,False,0.01,0.275,up,0,20,20,46,,,,,,,,,,,,,,,39.14321910000581,None,None,None,down,0.5751986000032048,39.14321910000581,None,,,,,,,,001,2020_Dec_05_1407,experiment,2020.2.8,60.038316453514405,
dataset/168.png,True,-0.5,0.3,down,0,21,21,168,,,,,,,,,,,,,,,40.25971320000099,None,None,None,down,0.5010131000017282,40.25971320000099,None,,,,,,,,001,2020_Dec_05_1407,experiment,2020.2.8,60.038316453514405,
dataset/90.png,False,0.05,0.225,up,0,22,22,90,,,,,,,,,,,,,,,41.29322410000168,None,None,None,up,0.4437510999996448,41.29322410000168,None,,,,,,,,001,2020_Dec_05_1407,experiment,2020.2.8,60.038316453514405,
dataset/6.png,False,0.01,0.025,up,0,23,23,6,,,,,,,,,,,,,,,42.276591000001645,43.77532480000082,43.77532480000082,None,up,2.5357787999964785,42.276591000001645,None,,,,,,,,001,2020_Dec_05_1407,experiment,2020.2.8,60.038316453514405,
dataset/73.png,False,-0.05,0.125,down,0,24,24,73,,,,,,,,,,,,,,,45.359670099998766,None,None,None,down,0.616266099998029,45.359670099998766,None,,,,,,,,001,2020_Dec_05_1407,experiment,2020.2.8,60.038316453514405,
dataset/146.png,False,0.1,0.25,up,0,25,25,146,,,,,,,,,,,,,,,46.509613700000045,None,None,None,up,0.594579500000691,46.509613700000045,None,,,,,,,,001,2020_Dec_05_1407,experiment,2020.2.8,60.038316453514405,
dataset/52.png,False,-0.05,0.0,down,0,26,26,52,,,,,,,,,,,,,,,47.643195900003775,None,None,None,down,0.5385527000034926,47.643195900003775,None,,,,,,,,001,2020_Dec_05_1407,experiment,2020.2.8,60.038316453514405,
dataset/75.png,False,0.05,0.125,up,0,27,27,75,,,,,,,,,,,,,,,48.72646160000295,None,None,None,down,0.6782210000019404,48.72646160000295,None,,,,,,,,001,2020_Dec_05_1407,experiment,2020.2.8,60.038316453514405,
dataset/78.png,False,0.05,0.15,up,0,28,28,78,,,,,,,,,,,,,,,49.9431401000038,None,None,None,up,0.5531868999969447,49.9431401000038,None,,,,,,,,001,2020_Dec_05_1407,experiment,2020.2.8,60.038316453514405,
dataset/40.png,False,-0.01,0.25,down,0,29,29,40,,,,,,,,,,,,,,,51.02618390000134,None,None,None,up,0.6484343999982229,51.02618390000134,None,,,,,,,,001,2020_Dec_05_1407,experiment,2020.2.8,60.038316453514405,
dataset/94.png,False,0.05,0.25,up,0,30,30,94,,,,,,,,,,,,,,,52.209511799999746,None,None,None,up,0.5312797000005958,52.209511799999746,None,,,,,,,,001,2020_Dec_05_1407,experiment,2020.2.8,60.038316453514405,
dataset/30.png,False,0.01,0.175,up,0,31,31,30,,,,,,,,,,,,,,,53.276390900005936,None,None,None,down,0.5937808000016958,53.276390900005936,None,,,,,,,,001,2020_Dec_05_1407,experiment,2020.2.8,60.038316453514405,
dataset/80.png,False,-0.05,0.175,down,0,32,32,80,,,,,,,,,,,,,,,54.409430200001225,None,None,None,down,0.49043060000258265,54.409430200001225,None,,,,,,,,001,2020_Dec_05_1407,experiment,2020.2.8,60.038316453514405,
dataset/1.png,False,-0.01,0.0,down,0,33,33,1,,,,,,,,,,,,,,,55.44297229999938,None,None,None,down,0.7171596999978647,55.44297229999938,None,,,,,,,,001,2020_Dec_05_1407,experiment,2020.2.8,60.038316453514405,
dataset/66.png,False,0.05,0.075,up,0,34,34,66,,,,,,,,,,,,,,,56.69274630000291,None,None,None,up,0.543830300004629,56.69274630000291,None,,,,,,,,001,2020_Dec_05_1407,experiment,2020.2.8,60.038316453514405,
dataset/8.png,False,-0.01,0.05,down,0,35,35,8,,,,,,,,,,,,,,,57.77605990000302,None,None,None,down,0.5504927000001771,57.77605990000302,None,,,,,,,,001,2020_Dec_05_1407,experiment,2020.2.8,60.038316453514405,
dataset/84.png,False,-0.05,0.2,down,0,36,36,84,,,,,,,,,,,,,,,58.85934470000211,None,None,None,down,0.6083260999948834,58.85934470000211,None,,,,,,,,001,2020_Dec_05_1407,experiment,2020.2.8,60.038316453514405,
dataset/128.png,False,-0.1,0.15,down,0,37,37,128,,,,,,,,,,,,,,,60.009545900000376,None,None,None,down,0.49089050000475254,60.009545900000376,None,,,,,,,,001,2020_Dec_05_1407,experiment,2020.2.8,60.038316453514405,
dataset/35.png,False,0.01,0.2,up,0,38,38,35,,,,,,,,,,,,,,,61.04285450000316,None,None,None,down,0.5644126999977743,61.04285450000316,None,,,,,,,,001,2020_Dec_05_1407,experiment,2020.2.8,60.038316453514405,
dataset/21.png,False,-0.01,0.125,down,0,39,39,21,,,,,,,,,,,,,,,62.14291400000366,None,None,None,up,0.8690740000020014,62.14291400000366,None,,,,,,,,001,2020_Dec_05_1407,experiment,2020.2.8,60.038316453514405,
dataset/25.png,False,-0.01,0.15,down,0,40,40,25,,,,,,,,,,,,,,,63.55932060000487,None,None,None,down,0.8360252999991644,63.55932060000487,None,,,,,,,,001,2020_Dec_05_1407,experiment,2020.2.8,60.038316453514405,
dataset/112.png,False,-0.1,0.05,down,0,41,41,112,,,,,,,,,,,,,,,64.9429123000009,None,None,None,down,0.523607399998582,64.9429123000009,None,,,,,,,,001,2020_Dec_05_1407,experiment,2020.2.8,60.038316453514405,
dataset/87.png,False,0.05,0.2,up,0,42,42,87,,,,,,,,,,,,,,,66.00940990000527,None,None,None,up,0.5185253000017838,66.00940990000527,None,,,,,,,,001,2020_Dec_05_1407,experiment,2020.2.8,60.038316453514405,
dataset/18.png,False,0.01,0.1,up,0,43,43,18,,,,,,,,,,,,,,,67.07612060000247,None,None,None,down,0.5473658999981126,67.07612060000247,None,,,,,,,,001,2020_Dec_05_1407,experiment,2020.2.8,60.038316453514405,
dataset/157.png,True,-0.0,0.0,none,0,44,44,157,,,,,,,,,,,,,,,68.15936550000333,None,None,None,up,1.2853231000044616,68.15936550000333,None,,,,,,,,001,2020_Dec_05_1407,experiment,2020.2.8,60.038316453514405,
dataset/23.png,False,0.01,0.125,up,0,45,45,23,,,,,,,,,,,,,,,69.9927988000054,None,None,None,up,0.822946199994476,69.9927988000054,None,,,,,,,,001,2020_Dec_05_1407,experiment,2020.2.8,60.038316453514405,
dataset/83.png,False,0.05,0.175,up,0,46,46,83,,,,,,,,,,,,,,,71.35915280000336,None,None,None,up,0.6593749999956344,71.35915280000336,None,,,,,,,,001,2020_Dec_05_1407,experiment,2020.2.8,60.038316453514405,
dataset/2.png,False,0.01,0.0,up,0,47,47,2,,,,,,,,,,,,,,,72.55913860000146,None,None,None,up,0.6638951999993878,72.55913860000146,None,,,,,,,,001,2020_Dec_05_1407,experiment,2020.2.8,60.038316453514405,
dataset/127.png,False,0.1,0.125,up,0,48,48,127,,,,,,,,,,,,,,,73.7592089000027,None,None,None,up,0.5655081000004429,73.7592089000027,None,,,,,,,,001,2020_Dec_05_1407,experiment,2020.2.8,60.038316453514405,
dataset/120.png,False,-0.1,0.1,down,0,49,49,120,,,,,,,,,,,,,,,74.85914530000446,None,None,None,down,0.5806144000016502,74.85914530000446,None,,,,,,,,001,2020_Dec_05_1407,experiment,2020.2.8,60.038316453514405,
dataset/13.png,False,-0.01,0.075,down,0,50,50,13,,,,,,,,,,,,,,,75.97600870000315,None,None,None,down,1.031509799999185,75.97600870000315,None,,,,,,,,001,2020_Dec_05_1407,experiment,2020.2.8,60.038316453514405,
dataset/54.png,False,0.05,0.0,up,0,51,51,54,,,,,,,,,,,,,,,77.5423704000059,None,None,None,up,0.8136929999964195,77.5423704000059,None,,,,,,,,001,2020_Dec_05_1407,experiment,2020.2.8,60.038316453514405,
dataset/134.png,False,0.1,0.175,up,0,52,52,134,,,,,,,,,,,,,,,78.8926266999988,None,None,None,up,0.8258773000052315,78.8926266999988,None,,,,,,,,001,2020_Dec_05_1407,experiment,2020.2.8,60.038316453514405,
dataset/85.png,False,-0.05,0.2,down,0,53,53,85,,,,,,,,,,,,,,,80.25925149999966,None,None,None,down,0.6405215999984648,80.25925149999966,None,,,,,,,,001,2020_Dec_05_1407,experiment,2020.2.8,60.038316453514405,
dataset/165.png,True,-0.5,0.0,down,0,54,54,165,,,,,,,,,,,,,,,81.44254770000407,None,None,None,down,0.60341630000039,81.44254770000407,None,,,,,,,,001,2020_Dec_05_1407,experiment,2020.2.8,60.038316453514405,
dataset/97.png,False,-0.05,0.275,down,0,55,55,97,,,,,,,,,,,,,,,82.59234210000432,None,None,None,down,0.646807400000398,82.59234210000432,None,,,,,,,,001,2020_Dec_05_1407,experiment,2020.2.8,60.038316453514405,
dataset/133.png,False,-0.1,0.175,down,0,56,56,133,,,,,,,,,,,,,,,83.77560169999924,None,None,None,down,0.5607767999972566,83.77560169999924,None,,,,,,,,001,2020_Dec_05_1407,experiment,2020.2.8,60.038316453514405,
dataset/12.png,False,-0.01,0.075,down,0,57,57,12,,,,,,,,,,,,,,,84.87563690000388,None,None,None,up,0.6054772999996203,84.87563690000388,None,,,,,,,,001,2020_Dec_05_1407,experiment,2020.2.8,60.038316453514405,
dataset/96.png,False,-0.05,0.275,down,0,58,58,96,,,,,,,,,,,,,,,86.02559630000178,None,None,None,down,0.7316949000014574,86.02559630000178,None,,,,,,,,001,2020_Dec_05_1407,experiment,2020.2.8,60.038316453514405,
dataset/0.png,False,-0.01,0.0,down,0,59,59,0,,,,,,,,,,,,,,,87.29220720000012,None,None,None,down,0.9970811000021058,87.29220720000012,None,,,,,,,,001,2020_Dec_05_1407,experiment,2020.2.8,60.038316453514405,
dataset/113.png,False,-0.1,0.05,down,0,60,60,113,,,,,,,,,,,,,,,88.80923489999986,None,None,None,down,0.764104200003203,88.80923489999986,None,,,,,,,,001,2020_Dec_05_1407,experiment,2020.2.8,60.038316453514405,
dataset/4.png,False,-0.01,0.025,down,0,61,61,4,,,,,,,,,,,,,,,90.10928810000041,91.60756290000427,91.60756290000427,None,up,2.3359034000022803,90.10928810000041,None,,,,,,,,001,2020_Dec_05_1407,experiment,2020.2.8,60.038316453514405,
dataset/56.png,False,-0.05,0.025,down,0,62,62,56,,,,,,,,,,,,,,,92.99223920000077,None,None,None,down,0.7173633000056725,92.99223920000077,None,,,,,,,,001,2020_Dec_05_1407,experiment,2020.2.8,60.038316453514405,
dataset/132.png,False,-0.1,0.175,down,0,63,63,132,,,,,,,,,,,,,,,94.24216270000034,None,None,None,down,0.9531132999982219,94.24216270000034,None,,,,,,,,001,2020_Dec_05_1407,experiment,2020.2.8,60.038316453514405,
dataset/167.png,True,0.5,0.0,up,0,64,64,167,,,,,,,,,,,,,,,95.74224930000491,None,None,None,up,0.7382440000001225,95.74224930000491,None,,,,,,,,001,2020_Dec_05_1407,experiment,2020.2.8,60.038316453514405,
dataset/114.png,False,0.1,0.05,up,0,65,65,114,,,,,,,,,,,,,,,97.02562610000314,None,None,None,up,0.7098035000017262,97.02562610000314,None,,,,,,,,001,2020_Dec_05_1407,experiment,2020.2.8,60.038316453514405,
dataset/82.png,False,0.05,0.175,up,0,66,66,82,,,,,,,,,,,,,,,98.27527850000479,None,None,None,up,0.8305237000022316,98.27527850000479,None,,,,,,,,001,2020_Dec_05_1407,experiment,2020.2.8,60.038316453514405,
dataset/164.png,True,-0.5,0.0,down,0,67,67,164,,,,,,,,,,,,,,,99.64222810000501,None,None,None,down,0.6075045000034152,99.64222810000501,None,,,,,,,,001,2020_Dec_05_1407,experiment,2020.2.8,60.038316453514405,
dataset/74.png,False,0.05,0.125,up,0,68,68,74,,,,,,,,,,,,,,,100.79217230000359,None,None,None,up,0.8032681999975466,100.79217230000359,None,,,,,,,,001,2020_Dec_05_1407,experiment,2020.2.8,60.038316453514405,
dataset/16.png,False,-0.01,0.1,down,0,69,69,16,,,,,,,,,,,,,,,102.14202070000465,None,None,None,up,1.0013646000006702,102.14202070000465,None,,,,,,,,001,2020_Dec_05_1407,experiment,2020.2.8,60.038316453514405,
dataset/61.png,False,-0.05,0.05,down,0,70,70,61,,,,,,,,,,,,,,,103.6590017999988,None,None,None,down,0.8301726999998209,103.6590017999988,None,,,,,,,,001,2020_Dec_05_1407,experiment,2020.2.8,60.038316453514405,
dataset/115.png,False,0.1,0.05,up,0,71,71,115,,,,,,,,,,,,,,,105.02546640000219,None,None,None,up,0.6583848000009311,105.02546640000219,None,,,,,,,,001,2020_Dec_05_1407,experiment,2020.2.8,60.038316453514405,
dataset/104.png,False,-0.1,0.0,down,0,72,72,104,,,,,,,,,,,,,,,106.20828830000391,None,None,None,down,0.6360453000015696,106.20828830000391,None,,,,,,,,001,2020_Dec_05_1407,experiment,2020.2.8,60.038316453514405,
dataset/152.png,False,-0.1,0.3,down,0,73,73,152,,,,,,,,,,,,,,,107.39207240000542,None,None,None,down,0.7666249000030803,107.39207240000542,None,,,,,,,,001,2020_Dec_05_1407,experiment,2020.2.8,60.038316453514405,
dataset/42.png,False,0.01,0.25,up,0,74,74,42,,,,,,,,,,,,,,,108.69181319999916,None,None,None,up,0.9359795999989728,108.69181319999916,None,,,,,,,,001,2020_Dec_05_1407,experiment,2020.2.8,60.038316453514405,
dataset/10.png,False,0.01,0.05,up,0,75,75,10,,,,,,,,,,,,,,,110.17539250000118,None,None,None,up,0.8591423999969265,110.17539250000118,None,,,,,,,,001,2020_Dec_05_1407,experiment,2020.2.8,60.038316453514405,
dataset/88.png,False,-0.05,0.225,down,0,76,76,88,,,,,,,,,,,,,,,111.57535230000212,None,None,None,up,0.8903293999974267,111.57535230000212,None,,,,,,,,001,2020_Dec_05_1407,experiment,2020.2.8,60.038316453514405,
dataset/124.png,False,-0.1,0.125,down,0,77,77,124,,,,,,,,,,,,,,,112.99194310000166,None,None,None,down,0.7925161000021035,112.99194310000166,None,,,,,,,,001,2020_Dec_05_1407,experiment,2020.2.8,60.038316453514405,
dataset/150.png,False,0.1,0.275,up,0,78,78,150,,,,,,,,,,,,,,,114.3251745000016,None,None,None,up,0.5796480999997584,114.3251745000016,None,,,,,,,,001,2020_Dec_05_1407,experiment,2020.2.8,60.038316453514405,
dataset/130.png,False,0.1,0.15,up,0,79,79,130,,,,,,,,,,,,,,,115.44170320000558,None,None,None,up,0.6241211999949883,115.44170320000558,None,,,,,,,,001,2020_Dec_05_1407,experiment,2020.2.8,60.038316453514405,
dataset/77.png,False,-0.05,0.15,down,0,80,80,77,,,,,,,,,,,,,,,116.60839490000217,None,None,None,down,0.5456373999986681,116.60839490000217,None,,,,,,,,001,2020_Dec_05_1407,experiment,2020.2.8,60.038316453514405,
dataset/5.png,False,-0.01,0.025,down,0,81,81,5,,,,,,,,,,,,,,,117.67526850000286,None,None,None,up,0.909220199995616,117.67526850000286,None,,,,,,,,001,2020_Dec_05_1407,experiment,2020.2.8,60.038316453514405,
dataset/34.png,False,0.01,0.2,up,0,82,82,34,,,,,,,,,,,,,,,119.12520640000002,None,None,None,down,0.6650993000002927,119.12520640000002,None,,,,,,,,001,2020_Dec_05_1407,experiment,2020.2.8,60.038316453514405,
dataset/59.png,False,0.05,0.025,up,0,83,83,59,,,,,,,,,,,,,,,120.32513860000472,None,None,None,up,0.5450354000058724,120.32513860000472,None,,,,,,,,001,2020_Dec_05_1407,experiment,2020.2.8,60.038316453514405,
dataset/47.png,False,0.01,0.275,up,0,84,84,47,,,,,,,,,,,,,,,121.4086277000024,None,None,None,down,0.7078115999975125,121.4086277000024,None,,,,,,,,001,2020_Dec_05_1407,experiment,2020.2.8,60.038316453514405,
dataset/136.png,False,-0.1,0.2,down,0,85,85,136,,,,,,,,,,,,,,,122.65850520000095,None,None,None,down,0.581433500003186,122.65850520000095,None,,,,,,,,001,2020_Dec_05_1407,experiment,2020.2.8,60.038316453514405,
dataset/22.png,False,0.01,0.125,up,0,86,86,22,,,,,,,,,,,,,,,123.77514070000325,None,None,None,up,0.5856679999997141,123.77514070000325,None,,,,,,,,001,2020_Dec_05_1407,experiment,2020.2.8,60.038316453514405,
dataset/138.png,False,0.1,0.2,up,0,87,87,138,,,,,,,,,,,,,,,124.90828920000058,None,None,None,up,0.738878999996814,124.90828920000058,None,,,,,,,,001,2020_Dec_05_1407,experiment,2020.2.8,60.038316453514405,
dataset/131.png,False,0.1,0.15,up,0,88,88,131,,,,,,,,,,,,,,,126.19174010000279,None,None,None,up,0.7178499000001466,126.19174010000279,None,,,,,,,,001,2020_Dec_05_1407,experiment,2020.2.8,60.038316453514405,
dataset/68.png,False,-0.05,0.1,down,0,89,89,68,,,,,,,,,,,,,,,127.44171780000033,None,None,None,down,0.8382254000025569,127.44171780000033,None,,,,,,,,001,2020_Dec_05_1407,experiment,2020.2.8,60.038316453514405,
dataset/11.png,False,0.01,0.05,up,0,90,90,11,,,,,,,,,,,,,,,128.82520769999974,None,None,None,up,0.7847365999987232,128.82520769999974,None,,,,,,,,001,2020_Dec_05_1407,experiment,2020.2.8,60.038316453514405,
dataset/107.png,False,0.1,0.0,up,0,91,91,107,,,,,,,,,,,,,,,130.15816410000116,None,None,None,up,0.5713488999972469,130.15816410000116,None,,,,,,,,001,2020_Dec_05_1407,experiment,2020.2.8,60.038316453514405,
dataset/141.png,False,-0.1,0.225,down,0,92,92,141,,,,,,,,,,,,,,,131.27508460000536,None,None,None,down,0.658784299994295,131.27508460000536,None,,,,,,,,001,2020_Dec_05_1407,experiment,2020.2.8,60.038316453514405,
dataset/106.png,False,0.1,0.0,up,0,93,93,106,,,,,,,,,,,,,,,132.45824720000383,None,None,None,up,0.5195787999982713,132.45824720000383,None,,,,,,,,001,2020_Dec_05_1407,experiment,2020.2.8,60.038316453514405,
dataset/26.png,False,0.01,0.15,up,0,94,94,26,,,,,,,,,,,,,,,133.52504749999935,None,None,None,down,0.8002400000041234,133.52504749999935,None,,,,,,,,001,2020_Dec_05_1407,experiment,2020.2.8,60.038316453514405,
dataset/71.png,False,0.05,0.1,up,0,95,95,71,,,,,,,,,,,,,,,134.85833280000224,136.35673460000544,136.35673460000544,None,up,2.13104949999979,134.85833280000224,None,,,,,,,,001,2020_Dec_05_1407,experiment,2020.2.8,60.038316453514405,
dataset/33.png,False,-0.01,0.2,down,0,96,96,33,,,,,,,,,,,,,,,137.5248855000027,None,None,None,down,0.8553431999971508,137.5248855000027,None,,,,,,,,001,2020_Dec_05_1407,experiment,2020.2.8,60.038316453514405,
dataset/19.png,False,0.01,0.1,up,0,97,97,19,,,,,,,,,,,,,,,138.9247933000006,None,None,None,down,1.13162359999842,138.9247933000006,None,,,,,,,,001,2020_Dec_05_1407,experiment,2020.2.8,60.038316453514405,
dataset/161.png,True,-0.0,0.3,none,0,98,98,161,,,,,,,,,,,,,,,140.59124020000309,None,None,None,up,0.7633381999985431,140.59124020000309,None,,,,,,,,001,2020_Dec_05_1407,experiment,2020.2.8,60.038316453514405,
dataset/69.png,False,-0.05,0.1,down,0,99,99,69,,,,,,,,,,,,,,,141.89134140000533,None,None,None,down,0.6732864000005065,141.89134140000533,None,,,,,,,,001,2020_Dec_05_1407,experiment,2020.2.8,60.038316453514405,
dataset/129.png,False,-0.1,0.15,down,0,100,100,129,,,,,,,,,,,,,,,143.10810270000366,None,None,None,down,0.7956305999978213,143.10810270000366,None,,,,,,,,001,2020_Dec_05_1407,experiment,2020.2.8,60.038316453514405,
dataset/53.png,False,-0.05,0.0,down,0,101,101,53,,,,,,,,,,,,,,,144.42480590000196,None,None,None,down,0.5704541000013705,144.42480590000196,None,,,,,,,,001,2020_Dec_05_1407,experiment,2020.2.8,60.038316453514405,
dataset/154.png,False,0.1,0.3,up,0,102,102,154,,,,,,,,,,,,,,,145.54136210000433,None,None,None,up,0.5269006000016816,145.54136210000433,None,,,,,,,,001,2020_Dec_05_1407,experiment,2020.2.8,60.038316453514405,
dataset/17.png,False,-0.01,0.1,down,0,103,103,17,,,,,,,,,,,,,,,146.60798559999967,None,None,None,down,0.6113186000002315,146.60798559999967,None,,,,,,,,001,2020_Dec_05_1407,experiment,2020.2.8,60.038316453514405,
dataset/39.png,False,0.01,0.225,up,0,104,104,39,,,,,,,,,,,,,,,147.75804000000062,None,None,None,down,0.66260009999678,147.75804000000062,None,,,,,,,,001,2020_Dec_05_1407,experiment,2020.2.8,60.038316453514405,
dataset/60.png,False,-0.05,0.05,down,0,105,105,60,,,,,,,,,,,,,,,148.9577619000047,None,None,None,down,0.6419892000049003,148.9577619000047,None,,,,,,,,001,2020_Dec_05_1407,experiment,2020.2.8,60.038316453514405,
dataset/143.png,False,0.1,0.225,up,0,106,106,143,,,,,,,,,,,,,,,150.14103060000343,None,None,None,up,0.5781002000003355,150.14103060000343,None,,,,,,,,001,2020_Dec_05_1407,experiment,2020.2.8,60.038316453514405,
dataset/118.png,False,0.1,0.075,up,0,107,107,118,,,,,,,,,,,,,,,151.25774580000143,None,None,None,up,0.5651886000050581,151.25774580000143,None,,,,,,,,001,2020_Dec_05_1407,experiment,2020.2.8,60.038316453514405,
dataset/101.png,False,-0.05,0.3,down,0,108,108,101,,,,,,,,,,,,,,,152.3580021000016,None,None,None,down,0.6060856999974931,152.3580021000016,None,,,,,,,,001,2020_Dec_05_1407,experiment,2020.2.8,60.038316453514405,
dataset/155.png,False,0.1,0.3,up,0,109,109,155,,,,,,,,,,,,,,,153.507863800005,None,None,None,up,0.6736076000015601,153.507863800005,None,,,,,,,,001,2020_Dec_05_1407,experiment,2020.2.8,60.038316453514405,
dataset/121.png,False,-0.1,0.1,down,0,110,110,121,,,,,,,,,,,,,,,154.72431440000219,None,None,None,down,0.4998838999963482,154.72431440000219,None,,,,,,,,001,2020_Dec_05_1407,experiment,2020.2.8,60.038316453514405,
dataset/7.png,False,0.01,0.025,up,0,111,111,7,,,,,,,,,,,,,,,155.75793740000518,None,None,None,up,0.860541000001831,155.75793740000518,None,,,,,,,,001,2020_Dec_05_1407,experiment,2020.2.8,60.038316453514405,
dataset/15.png,False,0.01,0.075,up,0,112,112,15,,,,,,,,,,,,,,,157.157910599999,None,None,None,up,0.8413062000036007,157.157910599999,None,,,,,,,,001,2020_Dec_05_1407,experiment,2020.2.8,60.038316453514405,
dataset/91.png,False,0.05,0.225,up,0,113,113,91,,,,,,,,,,,,,,,158.54088870000123,None,None,None,up,0.7532073999973363,158.54088870000123,None,,,,,,,,001,2020_Dec_05_1407,experiment,2020.2.8,60.038316453514405,
dataset/45.png,False,-0.01,0.275,down,0,114,114,45,,,,,,,,,,,,,,,159.84091280000575,None,None,None,down,0.7652722999991965,159.84091280000575,None,,,,,,,,001,2020_Dec_05_1407,experiment,2020.2.8,60.038316453514405,
dataset/158.png,True,0.0,0.0,none,0,115,115,158,,,,,,,,,,,,,,,161.141114500002,None,None,None,up,0.7750176999979885,161.141114500002,None,,,,,,,,001,2020_Dec_05_1407,experiment,2020.2.8,60.038316453514405,
dataset/122.png,False,0.1,0.1,up,0,116,116,122,,,,,,,,,,,,,,,162.45776460000343,None,None,None,up,0.8288170000014361,162.45776460000343,None,,,,,,,,001,2020_Dec_05_1407,experiment,2020.2.8,60.038316453514405,
dataset/67.png,False,0.05,0.075,up,0,117,117,67,,,,,,,,,,,,,,,163.82446619999973,None,None,None,up,0.6622948000003817,163.82446619999973,None,,,,,,,,001,2020_Dec_05_1407,experiment,2020.2.8,60.038316453514405,
dataset/163.png,True,0.0,0.3,none,0,118,118,163,,,,,,,,,,,,,,,165.02436560000206,None,None,None,up,0.9041123999995762,165.02436560000206,None,,,,,,,,001,2020_Dec_05_1407,experiment,2020.2.8,60.038316453514405,
dataset/86.png,False,0.05,0.2,up,0,119,119,86,,,,,,,,,,,,,,,166.47435470000346,None,None,None,up,0.58007290000387,166.47435470000346,None,,,,,,,,001,2020_Dec_05_1407,experiment,2020.2.8,60.038316453514405,
dataset/137.png,False,-0.1,0.2,down,0,120,120,137,,,,,,,,,,,,,,,167.59099000000424,None,None,None,down,0.5424222000001464,167.59099000000424,None,,,,,,,,001,2020_Dec_05_1407,experiment,2020.2.8,60.038316453514405,
dataset/159.png,True,0.0,0.0,none,0,121,121,159,,,,,,,,,,,,,,,168.6575049000021,None,None,None,up,0.7074962999977288,168.6575049000021,None,,,,,,,,001,2020_Dec_05_1407,experiment,2020.2.8,60.038316453514405,
dataset/64.png,False,-0.05,0.075,down,0,122,122,64,,,,,,,,,,,,,,,169.90764680000575,None,None,None,down,0.6232858000003034,169.90764680000575,None,,,,,,,,001,2020_Dec_05_1407,experiment,2020.2.8,60.038316453514405,
dataset/38.png,False,0.01,0.225,up,0,123,123,38,,,,,,,,,,,,,,,171.057633299999,None,None,None,up,0.8838309999991907,171.057633299999,None,,,,,,,,001,2020_Dec_05_1407,experiment,2020.2.8,60.038316453514405,
dataset/119.png,False,0.1,0.075,up,0,124,124,119,,,,,,,,,,,,,,,172.4735456000053,None,None,None,up,0.6419801000010921,172.4735456000053,None,,,,,,,,001,2020_Dec_05_1407,experiment,2020.2.8,60.038316453514405,
dataset/62.png,False,0.05,0.05,up,0,125,125,62,,,,,,,,,,,,,,,173.65745389999938,None,None,None,up,0.6217982999951346,173.65745389999938,None,,,,,,,,001,2020_Dec_05_1407,experiment,2020.2.8,60.038316453514405,
dataset/37.png,False,-0.01,0.225,down,0,126,126,37,,,,,,,,,,,,,,,174.82424130000436,None,None,None,down,0.676065200001176,174.82424130000436,None,,,,,,,,001,2020_Dec_05_1407,experiment,2020.2.8,60.038316453514405,
dataset/111.png,False,0.1,0.025,up,0,127,127,111,,,,,,,,,,,,,,,176.0406690000018,None,None,None,up,0.6554986999981338,176.0406690000018,None,,,,,,,,001,2020_Dec_05_1407,experiment,2020.2.8,60.038316453514405,
dataset/28.png,False,-0.01,0.175,down,0,128,128,28,,,,,,,,,,,,,,,177.24077140000009,None,None,None,down,0.6301050999973086,177.24077140000009,None,,,,,,,,001,2020_Dec_05_1407,experiment,2020.2.8,60.038316453514405,
dataset/151.png,False,0.1,0.275,up,0,129,129,151,,,,,,,,,,,,,,,178.40726469999936,None,None,None,up,0.6529980999985128,178.40726469999936,None,,,,,,,,001,2020_Dec_05_1407,experiment,2020.2.8,60.038316453514405,
dataset/99.png,False,0.05,0.275,up,0,130,130,99,,,,,,,,,,,,,,,179.6071460000021,None,None,None,down,0.7723821999970824,179.6071460000021,None,,,,,,,,001,2020_Dec_05_1407,experiment,2020.2.8,60.038316453514405,
dataset/110.png,False,0.1,0.025,up,0,131,131,110,,,,,,,,,,,,,,,180.9240751000034,None,None,None,up,0.5234356000000844,180.9240751000034,None,,,,,,,,001,2020_Dec_05_1407,experiment,2020.2.8,60.038316453514405,
dataset/149.png,False,-0.1,0.275,down,0,132,132,149,,,,,,,,,,,,,,,181.9735670000009,None,None,None,down,0.7198843000005581,181.9735670000009,None,,,,,,,,001,2020_Dec_05_1407,experiment,2020.2.8,60.038316453514405,
dataset/63.png,False,0.05,0.05,up,0,133,133,63,,,,,,,,,,,,,,,183.2406054000021,None,None,None,up,0.707951200005482,183.2406054000021,None,,,,,,,,001,2020_Dec_05_1407,experiment,2020.2.8,60.038316453514405,
dataset/32.png,False,-0.01,0.2,down,0,134,134,32,,,,,,,,,,,,,,,184.49062050000066,None,None,None,down,0.5888568999944255,184.49062050000066,None,,,,,,,,001,2020_Dec_05_1407,experiment,2020.2.8,60.038316453514405,
dataset/156.png,True,-0.0,0.0,none,0,135,135,156,,,,,,,,,,,,,,,185.60703920000378,None,None,None,up,0.8258301000023494,185.60703920000378,None,,,,,,,,001,2020_Dec_05_1407,experiment,2020.2.8,60.038316453514405,
dataset/100.png,False,-0.05,0.3,down,0,136,136,100,,,,,,,,,,,,,,,186.97394380000333,None,None,None,down,0.744080299999041,186.97394380000333,None,,,,,,,,001,2020_Dec_05_1407,experiment,2020.2.8,60.038316453514405,
dataset/24.png,False,-0.01,0.15,down,0,137,137,24,,,,,,,,,,,,,,,188.2570674000017,None,None,None,down,0.8067515000002459,188.2570674000017,None,,,,,,,,001,2020_Dec_05_1407,experiment,2020.2.8,60.038316453514405,
dataset/160.png,True,-0.0,0.3,none,0,138,138,160,,,,,,,,,,,,,,,189.6072559000022,None,None,None,down,0.6338322000010521,189.6072559000022,None,,,,,,,,001,2020_Dec_05_1407,experiment,2020.2.8,60.038316453514405,
dataset/144.png,False,-0.1,0.25,down,0,139,139,144,,,,,,,,,,,,,,,190.77369210000325,None,None,None,down,0.6206098000038764,190.77369210000325,None,,,,,,,,001,2020_Dec_05_1407,experiment,2020.2.8,60.038316453514405,
dataset/43.png,False,0.01,0.25,up,0,140,140,43,,,,,,,,,,,,,,,191.9405110000007,None,None,None,up,0.7902367999995477,191.9405110000007,None,,,,,,,,001,2020_Dec_05_1407,experiment,2020.2.8,60.038316453514405,
dataset/57.png,False,-0.05,0.025,down,0,141,141,57,,,,,,,,,,,,,,,193.27364970000053,None,None,None,down,0.643840700002329,193.27364970000053,None,,,,,,,,001,2020_Dec_05_1407,experiment,2020.2.8,60.038316453514405,
dataset/147.png,False,0.1,0.25,up,0,142,142,147,,,,,,,,,,,,,,,194.45698660000198,None,None,None,up,0.730679299995245,194.45698660000198,None,,,,,,,,001,2020_Dec_05_1407,experiment,2020.2.8,60.038316453514405,
dataset/79.png,False,0.05,0.15,up,0,143,143,79,,,,,,,,,,,,,,,195.7071597000031,None,None,None,up,0.641563800003496,195.7071597000031,None,,,,,,,,001,2020_Dec_05_1407,experiment,2020.2.8,60.038316453514405,
dataset/171.png,True,0.5,0.3,up,0,144,144,171,,,,,,,,,,,,,,,196.89050549999956,None,None,None,up,0.5875916000004509,196.89050549999956,None,,,,,,,,001,2020_Dec_05_1407,experiment,2020.2.8,60.038316453514405,
dataset/102.png,False,0.05,0.3,up,0,145,145,102,,,,,,,,,,,,,,,198.0235004999995,None,None,None,down,0.6684309999982361,198.0235004999995,None,,,,,,,,001,2020_Dec_05_1407,experiment,2020.2.8,60.038316453514405,
dataset/105.png,False,-0.1,0.0,down,0,146,146,105,,,,,,,,,,,,,,,199.24016040000424,None,None,None,down,0.5631492999964394,199.24016040000424,None,,,,,,,,001,2020_Dec_05_1407,experiment,2020.2.8,60.038316453514405,
dataset/139.png,False,0.1,0.2,up,0,147,147,139,,,,,,,,,,,,,,,200.3404859000002,None,None,None,up,0.7630011000001105,200.3404859000002,None,,,,,,,,001,2020_Dec_05_1407,experiment,2020.2.8,60.038316453514405,
dataset/44.png,False,-0.01,0.275,down,0,148,148,44,,,,,,,,,,,,,,,201.64011230000324,None,None,None,up,0.6431692000041949,201.64011230000324,None,,,,,,,,001,2020_Dec_05_1407,experiment,2020.2.8,60.038316453514405,
dataset/29.png,False,-0.01,0.175,down,0,149,149,29,,,,,,,,,,,,,,,202.82365990000108,None,None,None,up,0.6517007000002195,202.82365990000108,None,,,,,,,,001,2020_Dec_05_1407,experiment,2020.2.8,60.038316453514405,
dataset/14.png,False,0.01,0.075,up,0,150,150,14,,,,,,,,,,,,,,,204.02343530000508,None,None,None,up,0.9410284999976284,204.02343530000508,None,,,,,,,,001,2020_Dec_05_1407,experiment,2020.2.8,60.038316453514405,
dataset/50.png,False,0.01,0.3,up,0,151,151,50,,,,,,,,,,,,,,,205.50693100000353,None,None,None,down,0.7192252999957418,205.50693100000353,None,,,,,,,,001,2020_Dec_05_1407,experiment,2020.2.8,60.038316453514405,
dataset/140.png,False,-0.1,0.225,down,0,152,152,140,,,,,,,,,,,,,,,206.77356359999976,None,None,None,down,0.6305235000036191,206.77356359999976,None,,,,,,,,001,2020_Dec_05_1407,experiment,2020.2.8,60.038316453514405,
dataset/36.png,False,-0.01,0.225,down,0,153,153,36,,,,,,,,,,,,,,,207.94033870000567,209.438736600001,209.438736600001,None,up,2.2014043999952264,207.94033870000567,None,,,,,,,,001,2020_Dec_05_1407,experiment,2020.2.8,60.038316453514405,
dataset/65.png,False,-0.05,0.075,down,0,154,154,65,,,,,,,,,,,,,,,210.6897914000001,None,None,None,down,0.5927926000003936,210.6897914000001,None,,,,,,,,001,2020_Dec_05_1407,experiment,2020.2.8,60.038316453514405,
dataset/98.png,False,0.05,0.275,up,0,155,155,98,,,,,,,,,,,,,,,211.82329290000052,None,None,None,up,0.6712654000002658,211.82329290000052,None,,,,,,,,001,2020_Dec_05_1407,experiment,2020.2.8,60.038316453514405,
dataset/31.png,False,0.01,0.175,up,0,156,156,31,,,,,,,,,,,,,,,213.0399522000007,None,None,None,down,0.6242385000005015,213.0399522000007,None,,,,,,,,001,2020_Dec_05_1407,experiment,2020.2.8,60.038316453514405,
dataset/108.png,False,-0.1,0.025,down,0,157,157,108,,,,,,,,,,,,,,,214.18989259999944,None,None,None,down,0.5030307000051835,214.18989259999944,None,,,,,,,,001,2020_Dec_05_1407,experiment,2020.2.8,60.038316453514405,
dataset/55.png,False,0.05,0.0,up,0,158,158,55,,,,,,,,,,,,,,,215.239840000002,None,None,None,up,0.5505803999985801,215.239840000002,None,,,,,,,,001,2020_Dec_05_1407,experiment,2020.2.8,60.038316453514405,
dataset/49.png,False,-0.01,0.3,down,0,159,159,49,,,,,,,,,,,,,,,216.32347210000444,None,None,None,up,0.6236848999978974,216.32347210000444,None,,,,,,,,001,2020_Dec_05_1407,experiment,2020.2.8,60.038316453514405,
dataset/170.png,True,0.5,0.3,up,0,160,160,170,,,,,,,,,,,,,,,217.48984770000243,None,None,None,up,0.5141806000028737,217.48984770000243,None,,,,,,,,001,2020_Dec_05_1407,experiment,2020.2.8,60.038316453514405,
dataset/72.png,False,-0.05,0.125,down,0,161,161,72,,,,,,,,,,,,,,,218.53970929999923,None,None,None,down,0.45107629999984056,218.53970929999923,None,,,,,,,,001,2020_Dec_05_1407,experiment,2020.2.8,60.038316453514405,
dataset/89.png,False,-0.05,0.225,down,0,162,162,89,,,,,,,,,,,,,,,219.52337190000253,None,None,None,down,0.6369552000032854,219.52337190000253,None,,,,,,,,001,2020_Dec_05_1407,experiment,2020.2.8,60.038316453514405,
dataset/93.png,False,-0.05,0.25,down,0,163,163,93,,,,,,,,,,,,,,,220.70671399999992,None,None,None,down,0.5477644000056898,220.70671399999992,None,,,,,,,,001,2020_Dec_05_1407,experiment,2020.2.8,60.038316453514405,
dataset/126.png,False,0.1,0.125,up,0,164,164,126,,,,,,,,,,,,,,,221.78971319999982,None,None,None,up,0.5646430999986478,221.78971319999982,None,,,,,,,,001,2020_Dec_05_1407,experiment,2020.2.8,60.038316453514405,
dataset/9.png,False,-0.01,0.05,down,0,165,165,9,,,,,,,,,,,,,,,222.8897020000004,None,None,None,down,0.5817564000026323,222.8897020000004,None,,,,,,,,001,2020_Dec_05_1407,experiment,2020.2.8,60.038316453514405,
dataset/20.png,False,-0.01,0.125,down,0,166,166,20,,,,,,,,,,,,,,,224.00658320000366,None,None,None,down,0.5038879999992787,224.00658320000366,None,,,,,,,,001,2020_Dec_05_1407,experiment,2020.2.8,60.038316453514405,
dataset/81.png,False,-0.05,0.175,down,0,167,167,81,,,,,,,,,,,,,,,225.05637209999986,None,None,None,down,0.5450532999966526,225.05637209999986,None,,,,,,,,001,2020_Dec_05_1407,experiment,2020.2.8,60.038316453514405,
dataset/169.png,True,-0.5,0.3,down,0,168,168,169,,,,,,,,,,,,,,,226.1397111000042,None,None,None,down,0.5295660999981919,226.1397111000042,None,,,,,,,,001,2020_Dec_05_1407,experiment,2020.2.8,60.038316453514405,
dataset/166.png,True,0.5,0.0,up,0,169,169,166,,,,,,,,,,,,,,,227.20629890000419,None,None,None,up,0.3795601000019815,227.20629890000419,None,,,,,,,,001,2020_Dec_05_1407,experiment,2020.2.8,60.038316453514405,
dataset/109.png,False,-0.1,0.025,down,0,170,170,109,,,,,,,,,,,,,,,228.1064406000005,None,None,None,down,0.5084018999987165,228.1064406000005,None,,,,,,,,001,2020_Dec_05_1407,experiment,2020.2.8,60.038316453514405,
dataset/92.png,False,-0.05,0.25,down,0,171,171,92,,,,,,,,,,,,,,,229.156556300004,None,None,None,down,0.8197807000033208,229.156556300004,None,,,,,,,,001,2020_Dec_05_1407,experiment,2020.2.8,60.038316453514405,
,,,,,,,,,,,,,,,,,,,,,,,,,,,,,,,230.0075130000041,None,return,1.2389234000002034,230.0075130000041,None,,001,2020_Dec_05_1407,experiment,2020.2.8,60.038316453514405,
