path,is_control,slope,noise,corrans,trials.thisRepN,trials.thisTrialN,trials.thisN,trials.thisIndex,instruct_text.started,instruct_text.stopped,ready.keys,ready.rt,ready.started,ready.stopped,timer1.started,timer1.stopped,timer2.started,timer2.stopped,timer3.started,timer3.stopped,timergo.started,timergo.stopped,image.started,image.stopped,text.started,text.stopped,key_resp.keys,key_resp.rt,key_resp.started,key_resp.stopped,text_2.started,text_2.stopped,key_resp_2.keys,key_resp_2.rt,key_resp_2.started,key_resp_2.stopped,participant,session,date,expName,psychopyVersion,frameRate,
,,,,,,,,,9.141012000000046,None,return,0.537968999997247,9.141012000000046,None,,,,,,,,,,,,,,,,,,,,,,,,001,2020_Dec_05_1231,experiment,2020.2.8,59.933318191764066,
dataset/122.png,False,0.1,0.1,up,0,0,0,122,,,,,,,9.70133710000664,10.701484500001243,10.68512400000327,11.685038800002076,11.685038800002076,12.684968900000968,12.684968900000968,None,14.337256100006925,None,None,None,up,0.679978400003165,14.337256100006925,None,,,,,,,,001,2020_Dec_05_1231,experiment,2020.2.8,59.933318191764066,
dataset/15.png,False,0.01,0.075,up,0,1,1,15,,,,,,,,,,,,,,,15.553029100003187,None,None,None,up,0.6737651000003098,15.553029100003187,None,,,,,,,,001,2020_Dec_05_1231,experiment,2020.2.8,59.933318191764066,
dataset/134.png,False,0.1,0.175,up,0,2,2,134,,,,,,,,,,,,,,,16.769674300005136,None,None,None,up,0.5497828999941703,16.769674300005136,None,,,,,,,,001,2020_Dec_05_1231,experiment,2020.2.8,59.933318191764066,
dataset/74.png,False,0.05,0.125,up,0,3,3,74,,,,,,,,,,,,,,,17.869743000002927,None,None,None,up,0.6231463000003714,17.869743000002927,None,,,,,,,,001,2020_Dec_05_1231,experiment,2020.2.8,59.933318191764066,
dataset/43.png,False,0.01,0.25,up,0,4,4,43,,,,,,,,,,,,,,,19.036268500000006,None,None,None,up,0.7148654000047827,19.036268500000006,None,,,,,,,,001,2020_Dec_05_1231,experiment,2020.2.8,59.933318191764066,
dataset/37.png,False,-0.01,0.225,down,0,5,5,37,,,,,,,,,,,,,,,20.286247800002457,None,None,None,down,0.8469268999979249,20.286247800002457,None,,,,,,,,001,2020_Dec_05_1231,experiment,2020.2.8,59.933318191764066,
dataset/114.png,False,0.1,0.05,up,0,6,6,114,,,,,,,,,,,,,,,21.669652399999904,None,None,None,up,0.49941989999933867,21.669652399999904,None,,,,,,,,001,2020_Dec_05_1231,experiment,2020.2.8,59.933318191764066,
dataset/45.png,False,-0.01,0.275,down,0,7,7,45,,,,,,,,,,,,,,,22.70268020000367,None,None,None,up,0.7264145000008284,22.70268020000367,None,,,,,,,,001,2020_Dec_05_1231,experiment,2020.2.8,59.933318191764066,
dataset/121.png,False,-0.1,0.1,down,0,8,8,121,,,,,,,,,,,,,,,23.969570700006443,None,None,None,down,0.5300189999979921,23.969570700006443,None,,,,,,,,001,2020_Dec_05_1231,experiment,2020.2.8,59.933318191764066,
dataset/41.png,False,-0.01,0.25,down,0,9,9,41,,,,,,,,,,,,,,,25.03593080000428,None,None,None,up,0.45270110000274144,25.03593080000428,None,,,,,,,,001,2020_Dec_05_1231,experiment,2020.2.8,59.933318191764066,
dataset/50.png,False,0.01,0.3,up,0,10,10,50,,,,,,,,,,,,,,,26.036147900005744,None,None,None,down,0.5408147999987705,26.036147900005744,None,,,,,,,,001,2020_Dec_05_1231,experiment,2020.2.8,59.933318191764066,
dataset/22.png,False,0.01,0.125,up,0,11,11,22,,,,,,,,,,,,,,,27.136180300003616,None,None,None,up,0.45950789999915287,27.136180300003616,None,,,,,,,,001,2020_Dec_05_1231,experiment,2020.2.8,59.933318191764066,
dataset/109.png,False,-0.1,0.025,down,0,12,12,109,,,,,,,,,,,,,,,28.13612340000691,None,None,None,down,0.4678007000038633,28.13612340000691,None,,,,,,,,001,2020_Dec_05_1231,experiment,2020.2.8,59.933318191764066,
dataset/160.png,True,-0.0,0.3,none,0,13,13,160,,,,,,,,,,,,,,,29.135789800006023,None,None,None,down,0.7163360999984434,29.135789800006023,None,,,,,,,,001,2020_Dec_05_1231,experiment,2020.2.8,59.933318191764066,
dataset/163.png,True,0.0,0.3,none,0,14,14,163,,,,,,,,,,,,,,,30.386048300002585,None,None,None,up,0.7430957000033231,30.386048300002585,None,,,,,,,,001,2020_Dec_05_1231,experiment,2020.2.8,59.933318191764066,
dataset/148.png,False,-0.1,0.275,down,0,15,15,148,,,,,,,,,,,,,,,31.686138500001107,None,None,None,down,0.5463272999986657,31.686138500001107,None,,,,,,,,001,2020_Dec_05_1231,experiment,2020.2.8,59.933318191764066,
dataset/1.png,False,-0.01,0.0,down,0,16,16,1,,,,,,,,,,,,,,,32.786143600002106,None,None,None,down,1.0168868999971892,32.786143600002106,None,,,,,,,,001,2020_Dec_05_1231,experiment,2020.2.8,59.933318191764066,
dataset/111.png,False,0.1,0.025,up,0,17,17,111,,,,,,,,,,,,,,,34.33603370000492,None,None,None,up,0.5429404999958933,34.33603370000492,None,,,,,,,,001,2020_Dec_05_1231,experiment,2020.2.8,59.933318191764066,
dataset/91.png,False,0.05,0.225,up,0,18,18,91,,,,,,,,,,,,,,,35.43597990000126,None,None,None,up,1.3113077000016347,35.43597990000126,None,,,,,,,,001,2020_Dec_05_1231,experiment,2020.2.8,59.933318191764066,
dataset/58.png,False,0.05,0.025,up,0,19,19,58,,,,,,,,,,,,,,,37.28573520000646,None,None,None,up,0.8447441999960574,37.28573520000646,None,,,,,,,,001,2020_Dec_05_1231,experiment,2020.2.8,59.933318191764066,
dataset/54.png,False,0.05,0.0,up,0,20,20,54,,,,,,,,,,,,,,,38.6692347000062,None,None,None,up,0.6073026999947615,38.6692347000062,None,,,,,,,,001,2020_Dec_05_1231,experiment,2020.2.8,59.933318191764066,
dataset/150.png,False,0.1,0.275,up,0,21,21,150,,,,,,,,,,,,,,,39.81929230000242,None,None,None,up,0.7035780000005616,39.81929230000242,None,,,,,,,,001,2020_Dec_05_1231,experiment,2020.2.8,59.933318191764066,
dataset/166.png,True,0.5,0.0,up,0,22,22,166,,,,,,,,,,,,,,,41.052499700002954,None,None,None,up,0.5745440000027884,41.052499700002954,None,,,,,,,,001,2020_Dec_05_1231,experiment,2020.2.8,59.933318191764066,
dataset/2.png,False,0.01,0.0,up,0,23,23,2,,,,,,,,,,,,,,,42.1858807000026,None,None,None,up,0.5716803000032087,42.1858807000026,None,,,,,,,,001,2020_Dec_05_1231,experiment,2020.2.8,59.933318191764066,
dataset/113.png,False,-0.1,0.05,down,0,24,24,113,,,,,,,,,,,,,,,43.31919380000181,None,None,None,down,0.5494512000004761,43.31919380000181,None,,,,,,,,001,2020_Dec_05_1231,experiment,2020.2.8,59.933318191764066,
dataset/47.png,False,0.01,0.275,up,0,25,25,47,,,,,,,,,,,,,,,44.4191415000023,None,None,None,up,0.7774127000011504,44.4191415000023,None,,,,,,,,001,2020_Dec_05_1231,experiment,2020.2.8,59.933318191764066,
dataset/103.png,False,0.05,0.3,up,0,26,26,103,,,,,,,,,,,,,,,45.735484100005124,None,None,None,up,0.7611890000043786,45.735484100005124,None,,,,,,,,001,2020_Dec_05_1231,experiment,2020.2.8,59.933318191764066,
dataset/56.png,False,-0.05,0.025,down,0,27,27,56,,,,,,,,,,,,,,,47.05234650000057,None,None,None,down,0.5092205999972066,47.05234650000057,None,,,,,,,,001,2020_Dec_05_1231,experiment,2020.2.8,59.933318191764066,
dataset/101.png,False,-0.05,0.3,down,0,28,28,101,,,,,,,,,,,,,,,48.11892179999995,None,None,None,up,0.714222399998107,48.11892179999995,None,,,,,,,,001,2020_Dec_05_1231,experiment,2020.2.8,59.933318191764066,
dataset/27.png,False,0.01,0.15,up,0,29,29,27,,,,,,,,,,,,,,,49.368804100005946,None,None,None,up,0.6286191000035615,49.368804100005946,None,,,,,,,,001,2020_Dec_05_1231,experiment,2020.2.8,59.933318191764066,
dataset/36.png,False,-0.01,0.225,down,0,30,30,36,,,,,,,,,,,,,,,50.55210680000164,None,None,None,up,0.5500455000001239,50.55210680000164,None,,,,,,,,001,2020_Dec_05_1231,experiment,2020.2.8,59.933318191764066,
dataset/70.png,False,0.05,0.1,up,0,31,31,70,,,,,,,,,,,,,,,51.63531050000165,None,None,None,up,0.5790364999993471,51.63531050000165,None,,,,,,,,001,2020_Dec_05_1231,experiment,2020.2.8,59.933318191764066,
dataset/143.png,False,0.1,0.225,up,0,32,32,143,,,,,,,,,,,,,,,52.75218440000026,None,None,None,up,0.5965552999987267,52.75218440000026,None,,,,,,,,001,2020_Dec_05_1231,experiment,2020.2.8,59.933318191764066,
dataset/105.png,False,-0.1,0.0,down,0,33,33,105,,,,,,,,,,,,,,,53.885587900003884,None,None,None,down,0.49686300000030315,53.885587900003884,None,,,,,,,,001,2020_Dec_05_1231,experiment,2020.2.8,59.933318191764066,
dataset/3.png,False,0.01,0.0,up,0,34,34,3,,,,,,,,,,,,,,,54.91889880000235,None,None,None,up,0.5524909000014304,54.91889880000235,None,,,,,,,,001,2020_Dec_05_1231,experiment,2020.2.8,59.933318191764066,
dataset/60.png,False,-0.05,0.05,down,0,35,35,60,,,,,,,,,,,,,,,56.01890620000631,None,None,None,down,0.5288485999990371,56.01890620000631,None,,,,,,,,001,2020_Dec_05_1231,experiment,2020.2.8,59.933318191764066,
dataset/169.png,True,-0.5,0.3,down,0,36,36,169,,,,,,,,,,,,,,,57.085579400001734,None,None,None,down,0.6652785999976913,57.085579400001734,None,,,,,,,,001,2020_Dec_05_1231,experiment,2020.2.8,59.933318191764066,
dataset/85.png,False,-0.05,0.2,down,0,37,37,85,,,,,,,,,,,,,,,58.302266200000304,None,None,None,down,0.7316439999995055,58.302266200000304,None,,,,,,,,001,2020_Dec_05_1231,experiment,2020.2.8,59.933318191764066,
dataset/20.png,False,-0.01,0.125,down,0,38,38,20,,,,,,,,,,,,,,,59.5687520000065,None,None,None,up,0.5417249000020092,59.5687520000065,None,,,,,,,,001,2020_Dec_05_1231,experiment,2020.2.8,59.933318191764066,
dataset/153.png,False,-0.1,0.3,down,0,39,39,153,,,,,,,,,,,,,,,60.65215820000594,None,None,None,down,0.5639360999994096,60.65215820000594,None,,,,,,,,001,2020_Dec_05_1231,experiment,2020.2.8,59.933318191764066,
dataset/118.png,False,0.1,0.075,up,0,40,40,118,,,,,,,,,,,,,,,61.752138800002285,None,None,None,up,0.481868900002155,61.752138800002285,None,,,,,,,,001,2020_Dec_05_1231,experiment,2020.2.8,59.933318191764066,
dataset/73.png,False,-0.05,0.125,down,0,41,41,73,,,,,,,,,,,,,,,62.76882050000131,None,None,None,down,0.5124642000009771,62.76882050000131,None,,,,,,,,001,2020_Dec_05_1231,experiment,2020.2.8,59.933318191764066,
dataset/99.png,False,0.05,0.275,up,0,42,42,99,,,,,,,,,,,,,,,63.81874460000108,None,None,None,down,0.6745607999982894,63.81874460000108,None,,,,,,,,001,2020_Dec_05_1231,experiment,2020.2.8,59.933318191764066,
dataset/87.png,False,0.05,0.2,up,0,43,43,87,,,,,,,,,,,,,,,65.03538130000379,None,None,None,up,0.4508760999960941,65.03538130000379,None,,,,,,,,001,2020_Dec_05_1231,experiment,2020.2.8,59.933318191764066,
dataset/146.png,False,0.1,0.25,up,0,44,44,146,,,,,,,,,,,,,,,66.03508580000198,None,None,None,up,0.5995149000009405,66.03508580000198,None,,,,,,,,001,2020_Dec_05_1231,experiment,2020.2.8,59.933318191764066,
dataset/10.png,False,0.01,0.05,up,0,45,45,10,,,,,,,,,,,,,,,67.18537830000423,None,None,None,down,0.6657940000004601,67.18537830000423,None,,,,,,,,001,2020_Dec_05_1231,experiment,2020.2.8,59.933318191764066,
dataset/92.png,False,-0.05,0.25,down,0,46,46,92,,,,,,,,,,,,,,,68.40195220000169,None,None,None,down,0.7495424000007915,68.40195220000169,None,,,,,,,,001,2020_Dec_05_1231,experiment,2020.2.8,59.933318191764066,
dataset/35.png,False,0.01,0.2,up,0,47,47,35,,,,,,,,,,,,,,,69.68506420000631,None,None,None,down,0.6470001000052434,69.68506420000631,None,,,,,,,,001,2020_Dec_05_1231,experiment,2020.2.8,59.933318191764066,
dataset/34.png,False,0.01,0.2,up,0,48,48,34,,,,,,,,,,,,,,,70.88504710000416,None,None,None,down,0.7241572999992059,70.88504710000416,None,,,,,,,,001,2020_Dec_05_1231,experiment,2020.2.8,59.933318191764066,
dataset/28.png,False,-0.01,0.175,down,0,49,49,28,,,,,,,,,,,,,,,72.15181570000277,None,None,None,down,0.7917583000016748,72.15181570000277,None,,,,,,,,001,2020_Dec_05_1231,experiment,2020.2.8,59.933318191764066,
dataset/126.png,False,0.1,0.125,up,0,50,50,126,,,,,,,,,,,,,,,73.48542240000097,None,None,None,up,0.5217679999987013,73.48542240000097,None,,,,,,,,001,2020_Dec_05_1231,experiment,2020.2.8,59.933318191764066,
dataset/123.png,False,0.1,0.1,up,0,51,51,123,,,,,,,,,,,,,,,74.55159860000276,None,None,None,up,0.6887002000003122,74.55159860000276,None,,,,,,,,001,2020_Dec_05_1231,experiment,2020.2.8,59.933318191764066,
dataset/30.png,False,0.01,0.175,up,0,52,52,30,,,,,,,,,,,,,,,75.78501300000062,None,None,None,down,0.5858115999944857,75.78501300000062,None,,,,,,,,001,2020_Dec_05_1231,experiment,2020.2.8,59.933318191764066,
dataset/75.png,False,0.05,0.125,up,0,53,53,75,,,,,,,,,,,,,,,76.93522330000269,None,None,None,down,0.7668101000017487,76.93522330000269,None,,,,,,,,001,2020_Dec_05_1231,experiment,2020.2.8,59.933318191764066,
dataset/19.png,False,0.01,0.1,up,0,54,54,19,,,,,,,,,,,,,,,78.2349794000038,None,None,None,down,0.7000917999976082,78.2349794000038,None,,,,,,,,001,2020_Dec_05_1231,experiment,2020.2.8,59.933318191764066,
dataset/112.png,False,-0.1,0.05,down,0,55,55,112,,,,,,,,,,,,,,,79.46828250000544,None,None,None,down,0.514488100001472,79.46828250000544,None,,,,,,,,001,2020_Dec_05_1231,experiment,2020.2.8,59.933318191764066,
dataset/5.png,False,-0.01,0.025,down,0,56,56,5,,,,,,,,,,,,,,,80.51832300000387,None,None,None,up,0.7013678000002983,80.51832300000387,None,,,,,,,,001,2020_Dec_05_1231,experiment,2020.2.8,59.933318191764066,
dataset/21.png,False,-0.01,0.125,down,0,57,57,21,,,,,,,,,,,,,,,81.751534300005,None,None,None,up,0.6856139000010444,81.751534300005,None,,,,,,,,001,2020_Dec_05_1231,experiment,2020.2.8,59.933318191764066,
dataset/117.png,False,-0.1,0.075,down,0,58,58,117,,,,,,,,,,,,,,,82.98506670000643,None,None,None,down,0.6006866000025184,82.98506670000643,None,,,,,,,,001,2020_Dec_05_1231,experiment,2020.2.8,59.933318191764066,
dataset/12.png,False,-0.01,0.075,down,0,59,59,12,,,,,,,,,,,,,,,84.11824510000588,None,None,None,up,0.6287480000028154,84.11824510000588,None,,,,,,,,001,2020_Dec_05_1231,experiment,2020.2.8,59.933318191764066,
dataset/93.png,False,-0.05,0.25,down,0,60,60,93,,,,,,,,,,,,,,,85.28481940000347,None,None,None,down,0.5557754000037676,85.28481940000347,None,,,,,,,,001,2020_Dec_05_1231,experiment,2020.2.8,59.933318191764066,
dataset/18.png,False,0.01,0.1,up,0,61,61,18,,,,,,,,,,,,,,,86.384784700007,None,None,None,up,0.734366399999999,86.384784700007,None,,,,,,,,001,2020_Dec_05_1231,experiment,2020.2.8,59.933318191764066,
dataset/32.png,False,-0.01,0.2,down,0,62,62,32,,,,,,,,,,,,,,,87.6514335000029,None,None,None,up,0.7231907999957912,87.6514335000029,None,,,,,,,,001,2020_Dec_05_1231,experiment,2020.2.8,59.933318191764066,
dataset/133.png,False,-0.1,0.175,down,0,63,63,133,,,,,,,,,,,,,,,88.91812070000015,None,None,None,down,0.564130099999602,88.91812070000015,None,,,,,,,,001,2020_Dec_05_1231,experiment,2020.2.8,59.933318191764066,
dataset/159.png,True,0.0,0.0,none,0,64,64,159,,,,,,,,,,,,,,,90.01842710000346,None,None,None,down,1.0647753999946872,90.01842710000346,None,,,,,,,,001,2020_Dec_05_1231,experiment,2020.2.8,59.933318191764066,
dataset/116.png,False,-0.1,0.075,down,0,65,65,116,,,,,,,,,,,,,,,91.6181957000008,None,None,None,down,0.7077800999977626,91.6181957000008,None,,,,,,,,001,2020_Dec_05_1231,experiment,2020.2.8,59.933318191764066,
dataset/158.png,True,0.0,0.0,none,0,66,66,158,,,,,,,,,,,,,,,92.86804380000103,94.36703190000117,94.36703190000117,None,up,2.7401176000057603,92.86804380000103,None,,,,,,,,001,2020_Dec_05_1231,experiment,2020.2.8,59.933318191764066,
dataset/31.png,False,0.01,0.175,up,0,67,67,31,,,,,,,,,,,,,,,96.15135410000221,None,None,None,down,0.6234941999937291,96.15135410000221,None,,,,,,,,001,2020_Dec_05_1231,experiment,2020.2.8,59.933318191764066,
dataset/11.png,False,0.01,0.05,up,0,68,68,11,,,,,,,,,,,,,,,97.33492330000445,None,None,None,down,0.8554579000046942,97.33492330000445,None,,,,,,,,001,2020_Dec_05_1231,experiment,2020.2.8,59.933318191764066,
dataset/6.png,False,0.01,0.025,up,0,69,69,6,,,,,,,,,,,,,,,98.75127340000472,None,None,None,up,0.5244876999931876,98.75127340000472,None,,,,,,,,001,2020_Dec_05_1231,experiment,2020.2.8,59.933318191764066,
dataset/107.png,False,0.1,0.0,up,0,70,70,107,,,,,,,,,,,,,,,99.81809240000439,None,None,None,up,0.4871616999953403,99.81809240000439,None,,,,,,,,001,2020_Dec_05_1231,experiment,2020.2.8,59.933318191764066,
dataset/86.png,False,0.05,0.2,up,0,71,71,86,,,,,,,,,,,,,,,100.85124600000563,None,None,None,up,0.538252400001511,100.85124600000563,None,,,,,,,,001,2020_Dec_05_1231,experiment,2020.2.8,59.933318191764066,
dataset/100.png,False,-0.05,0.3,down,0,72,72,100,,,,,,,,,,,,,,,101.9513614000025,None,None,None,down,0.595045800000662,101.9513614000025,None,,,,,,,,001,2020_Dec_05_1231,experiment,2020.2.8,59.933318191764066,
dataset/142.png,False,0.1,0.225,up,0,73,73,142,,,,,,,,,,,,,,,103.084709200004,None,None,None,up,0.4299366999985068,103.084709200004,None,,,,,,,,001,2020_Dec_05_1231,experiment,2020.2.8,59.933318191764066,
dataset/52.png,False,-0.05,0.0,down,0,74,74,52,,,,,,,,,,,,,,,104.05113520000305,None,None,None,down,0.4781433000025572,104.05113520000305,None,,,,,,,,001,2020_Dec_05_1231,experiment,2020.2.8,59.933318191764066,
dataset/79.png,False,0.05,0.15,up,0,75,75,79,,,,,,,,,,,,,,,105.06800580000709,None,None,None,up,0.6448830000008456,105.06800580000709,None,,,,,,,,001,2020_Dec_05_1231,experiment,2020.2.8,59.933318191764066,
dataset/90.png,False,0.05,0.225,up,0,76,76,90,,,,,,,,,,,,,,,106.26800830000138,None,None,None,up,0.4702622999975574,106.26800830000138,None,,,,,,,,001,2020_Dec_05_1231,experiment,2020.2.8,59.933318191764066,
dataset/66.png,False,0.05,0.075,up,0,77,77,66,,,,,,,,,,,,,,,107.28439950000029,None,None,None,up,0.5934888000047067,107.28439950000029,None,,,,,,,,001,2020_Dec_05_1231,experiment,2020.2.8,59.933318191764066,
dataset/64.png,False,-0.05,0.075,down,0,78,78,64,,,,,,,,,,,,,,,108.41800960000546,None,None,None,down,0.46173900000576396,108.41800960000546,None,,,,,,,,001,2020_Dec_05_1231,experiment,2020.2.8,59.933318191764066,
dataset/77.png,False,-0.05,0.15,down,0,79,79,77,,,,,,,,,,,,,,,109.43454240000574,None,None,None,down,0.5320281999956933,109.43454240000574,None,,,,,,,,001,2020_Dec_05_1231,experiment,2020.2.8,59.933318191764066,
dataset/38.png,False,0.01,0.225,up,0,80,80,38,,,,,,,,,,,,,,,110.51783500000602,None,None,None,up,0.6477978999973857,110.51783500000602,None,,,,,,,,001,2020_Dec_05_1231,experiment,2020.2.8,59.933318191764066,
dataset/152.png,False,-0.1,0.3,down,0,81,81,152,,,,,,,,,,,,,,,111.70095840000431,None,None,None,down,0.7310843000013847,111.70095840000431,None,,,,,,,,001,2020_Dec_05_1231,experiment,2020.2.8,59.933318191764066,
dataset/154.png,False,0.1,0.3,up,0,82,82,154,,,,,,,,,,,,,,,112.98442560000694,None,None,None,up,0.5201015999991796,112.98442560000694,None,,,,,,,,001,2020_Dec_05_1231,experiment,2020.2.8,59.933318191764066,
dataset/39.png,False,0.01,0.225,up,0,83,83,39,,,,,,,,,,,,,,,114.06790340000589,None,None,None,down,0.3828401999999187,114.06790340000589,None,,,,,,,,001,2020_Dec_05_1231,experiment,2020.2.8,59.933318191764066,
dataset/71.png,False,0.05,0.1,up,0,84,84,71,,,,,,,,,,,,,,,114.98432080000202,None,None,None,up,0.5123442000040086,114.98432080000202,None,,,,,,,,001,2020_Dec_05_1231,experiment,2020.2.8,59.933318191764066,
dataset/7.png,False,0.01,0.025,up,0,85,85,7,,,,,,,,,,,,,,,116.03454730000522,None,None,None,up,0.5102967999991961,116.03454730000522,None,,,,,,,,001,2020_Dec_05_1231,experiment,2020.2.8,59.933318191764066,
dataset/138.png,False,0.1,0.2,up,0,86,86,138,,,,,,,,,,,,,,,117.08422050000081,None,None,None,up,0.5119351999965147,117.08422050000081,None,,,,,,,,001,2020_Dec_05_1231,experiment,2020.2.8,59.933318191764066,
dataset/53.png,False,-0.05,0.0,down,0,87,87,53,,,,,,,,,,,,,,,118.1344018000018,None,None,None,down,0.43445950000023004,118.1344018000018,None,,,,,,,,001,2020_Dec_05_1231,experiment,2020.2.8,59.933318191764066,
dataset/144.png,False,-0.1,0.25,down,0,88,88,144,,,,,,,,,,,,,,,119.10083260000101,None,None,None,down,0.5279056999934255,119.10083260000101,None,,,,,,,,001,2020_Dec_05_1231,experiment,2020.2.8,59.933318191764066,
dataset/80.png,False,-0.05,0.175,down,0,89,89,80,,,,,,,,,,,,,,,120.16767560000153,None,None,None,down,0.5260318000000552,120.16767560000153,None,,,,,,,,001,2020_Dec_05_1231,experiment,2020.2.8,59.933318191764066,
dataset/97.png,False,-0.05,0.275,down,0,90,90,97,,,,,,,,,,,,,,,121.23420470000565,None,None,None,down,0.5263182999988203,121.23420470000565,None,,,,,,,,001,2020_Dec_05_1231,experiment,2020.2.8,59.933318191764066,
dataset/164.png,True,-0.5,0.0,down,0,91,91,164,,,,,,,,,,,,,,,122.31773960000282,None,None,None,down,0.4367941000018618,122.31773960000282,None,,,,,,,,001,2020_Dec_05_1231,experiment,2020.2.8,59.933318191764066,
dataset/106.png,False,0.1,0.0,up,0,92,92,106,,,,,,,,,,,,,,,123.30077110000275,None,None,None,up,0.4422768000003998,123.30077110000275,None,,,,,,,,001,2020_Dec_05_1231,experiment,2020.2.8,59.933318191764066,
dataset/25.png,False,-0.01,0.15,down,0,93,93,25,,,,,,,,,,,,,,,124.30074640000385,None,None,None,down,0.5558223000043654,124.30074640000385,None,,,,,,,,001,2020_Dec_05_1231,experiment,2020.2.8,59.933318191764066,
dataset/130.png,False,0.1,0.15,up,0,94,94,130,,,,,,,,,,,,,,,125.4007386000012,None,None,None,up,0.4225566000022809,125.4007386000012,None,,,,,,,,001,2020_Dec_05_1231,experiment,2020.2.8,59.933318191764066,
dataset/128.png,False,-0.1,0.15,down,0,95,95,128,,,,,,,,,,,,,,,126.38404790000641,None,None,None,down,0.5206847000008565,126.38404790000641,None,,,,,,,,001,2020_Dec_05_1231,experiment,2020.2.8,59.933318191764066,
dataset/96.png,False,-0.05,0.275,down,0,96,96,96,,,,,,,,,,,,,,,127.45068780000292,None,None,None,down,0.60663950000162,127.45068780000292,None,,,,,,,,001,2020_Dec_05_1231,experiment,2020.2.8,59.933318191764066,
dataset/119.png,False,0.1,0.075,up,0,97,97,119,,,,,,,,,,,,,,,128.60065000000031,None,None,None,up,0.4578920999992988,128.60065000000031,None,,,,,,,,001,2020_Dec_05_1231,experiment,2020.2.8,59.933318191764066,
dataset/102.png,False,0.05,0.3,up,0,98,98,102,,,,,,,,,,,,,,,129.6175949000026,None,None,None,down,0.4817285000026459,129.6175949000026,None,,,,,,,,001,2020_Dec_05_1231,experiment,2020.2.8,59.933318191764066,
dataset/88.png,False,-0.05,0.225,down,0,99,99,88,,,,,,,,,,,,,,,130.6341664000065,None,None,None,down,0.5222259999936796,130.6341664000065,None,,,,,,,,001,2020_Dec_05_1231,experiment,2020.2.8,59.933318191764066,
dataset/65.png,False,-0.05,0.075,down,0,100,100,65,,,,,,,,,,,,,,,131.7006096000041,None,None,None,down,0.5611481000014464,131.7006096000041,None,,,,,,,,001,2020_Dec_05_1231,experiment,2020.2.8,59.933318191764066,
dataset/95.png,False,0.05,0.25,up,0,101,101,95,,,,,,,,,,,,,,,132.81745750000118,None,None,None,up,0.49552070000208914,132.81745750000118,None,,,,,,,,001,2020_Dec_05_1231,experiment,2020.2.8,59.933318191764066,
dataset/23.png,False,0.01,0.125,up,0,102,102,23,,,,,,,,,,,,,,,133.85039870000037,None,None,None,up,0.5806145000024117,133.85039870000037,None,,,,,,,,001,2020_Dec_05_1231,experiment,2020.2.8,59.933318191764066,
dataset/161.png,True,-0.0,0.3,none,0,103,103,161,,,,,,,,,,,,,,,134.96729760000017,None,None,None,down,0.49328719999903115,134.96729760000017,None,,,,,,,,001,2020_Dec_05_1231,experiment,2020.2.8,59.933318191764066,
dataset/84.png,False,-0.05,0.2,down,0,104,104,84,,,,,,,,,,,,,,,136.00051510000048,None,None,None,down,0.5825219000034849,136.00051510000048,None,,,,,,,,001,2020_Dec_05_1231,experiment,2020.2.8,59.933318191764066,
dataset/104.png,False,-0.1,0.0,down,0,105,105,104,,,,,,,,,,,,,,,137.11723780000466,None,None,None,down,0.45697800000198185,137.11723780000466,None,,,,,,,,001,2020_Dec_05_1231,experiment,2020.2.8,59.933318191764066,
dataset/29.png,False,-0.01,0.175,down,0,106,106,29,,,,,,,,,,,,,,,138.11747130000003,None,None,None,up,0.4870320999980322,138.11747130000003,None,,,,,,,,001,2020_Dec_05_1231,experiment,2020.2.8,59.933318191764066,
dataset/151.png,False,0.1,0.275,up,0,107,107,151,,,,,,,,,,,,,,,139.1673918000015,None,None,None,up,0.7988478999977815,139.1673918000015,None,,,,,,,,001,2020_Dec_05_1231,experiment,2020.2.8,59.933318191764066,
dataset/125.png,False,-0.1,0.125,down,0,108,108,125,,,,,,,,,,,,,,,140.5005508000031,None,None,None,down,0.5135972999996739,140.5005508000031,None,,,,,,,,001,2020_Dec_05_1231,experiment,2020.2.8,59.933318191764066,
dataset/72.png,False,-0.05,0.125,down,0,109,109,72,,,,,,,,,,,,,,,141.5504504000055,None,None,None,down,0.6233713000037824,141.5504504000055,None,,,,,,,,001,2020_Dec_05_1231,experiment,2020.2.8,59.933318191764066,
dataset/63.png,False,0.05,0.05,up,0,110,110,63,,,,,,,,,,,,,,,142.71738310000364,None,None,None,up,0.5113694000028772,142.71738310000364,None,,,,,,,,001,2020_Dec_05_1231,experiment,2020.2.8,59.933318191764066,
dataset/33.png,False,-0.01,0.2,down,0,111,111,33,,,,,,,,,,,,,,,143.76698380000016,None,None,None,down,0.542300900000555,143.76698380000016,None,,,,,,,,001,2020_Dec_05_1231,experiment,2020.2.8,59.933318191764066,
dataset/78.png,False,0.05,0.15,up,0,112,112,78,,,,,,,,,,,,,,,144.85035960000096,None,None,None,up,0.5858934999996563,144.85035960000096,None,,,,,,,,001,2020_Dec_05_1231,experiment,2020.2.8,59.933318191764066,
dataset/59.png,False,0.05,0.025,up,0,113,113,59,,,,,,,,,,,,,,,145.9839035000041,None,None,None,up,0.5157184000054258,145.9839035000041,None,,,,,,,,001,2020_Dec_05_1231,experiment,2020.2.8,59.933318191764066,
dataset/170.png,True,0.5,0.3,up,0,114,114,170,,,,,,,,,,,,,,,147.0338752000025,None,None,None,up,0.5209520999997039,147.0338752000025,None,,,,,,,,001,2020_Dec_05_1231,experiment,2020.2.8,59.933318191764066,
dataset/42.png,False,0.01,0.25,up,0,115,115,42,,,,,,,,,,,,,,,148.1003164000067,None,None,None,down,0.5070956999988994,148.1003164000067,None,,,,,,,,001,2020_Dec_05_1231,experiment,2020.2.8,59.933318191764066,
dataset/62.png,False,0.05,0.05,up,0,116,116,62,,,,,,,,,,,,,,,149.15032300000166,None,None,None,up,0.5262350000048173,149.15032300000166,None,,,,,,,,001,2020_Dec_05_1231,experiment,2020.2.8,59.933318191764066,
dataset/149.png,False,-0.1,0.275,down,0,117,117,149,,,,,,,,,,,,,,,150.2171959000043,None,None,None,down,0.6269969999993918,150.2171959000043,None,,,,,,,,001,2020_Dec_05_1231,experiment,2020.2.8,59.933318191764066,
dataset/76.png,False,-0.05,0.15,down,0,118,118,76,,,,,,,,,,,,,,,151.3837943000035,None,None,None,down,0.4979544000016176,151.3837943000035,None,,,,,,,,001,2020_Dec_05_1231,experiment,2020.2.8,59.933318191764066,
dataset/115.png,False,0.1,0.05,up,0,119,119,115,,,,,,,,,,,,,,,152.43381450000015,None,None,None,up,0.49545539999962784,152.43381450000015,None,,,,,,,,001,2020_Dec_05_1231,experiment,2020.2.8,59.933318191764066,
dataset/81.png,False,-0.05,0.175,down,0,120,120,81,,,,,,,,,,,,,,,153.48365250000643,None,None,None,down,0.4441136000023107,153.48365250000643,None,,,,,,,,001,2020_Dec_05_1231,experiment,2020.2.8,59.933318191764066,
dataset/26.png,False,0.01,0.15,up,0,121,121,26,,,,,,,,,,,,,,,154.46694470000512,None,None,None,down,0.7171706000008271,154.46694470000512,None,,,,,,,,001,2020_Dec_05_1231,experiment,2020.2.8,59.933318191764066,
dataset/9.png,False,-0.01,0.05,down,0,122,122,9,,,,,,,,,,,,,,,155.71713830000226,None,None,None,down,0.49632479999854695,155.71713830000226,None,,,,,,,,001,2020_Dec_05_1231,experiment,2020.2.8,59.933318191764066,
dataset/139.png,False,0.1,0.2,up,0,123,123,139,,,,,,,,,,,,,,,156.75029980000545,None,None,None,up,0.528131700004451,156.75029980000545,None,,,,,,,,001,2020_Dec_05_1231,experiment,2020.2.8,59.933318191764066,
dataset/127.png,False,0.1,0.125,up,0,124,124,127,,,,,,,,,,,,,,,157.81701460000477,None,None,None,up,0.520022799995786,157.81701460000477,None,,,,,,,,001,2020_Dec_05_1231,experiment,2020.2.8,59.933318191764066,
dataset/124.png,False,-0.1,0.125,down,0,125,125,124,,,,,,,,,,,,,,,158.8834777000011,None,None,None,down,0.4797150000013062,158.8834777000011,None,,,,,,,,001,2020_Dec_05_1231,experiment,2020.2.8,59.933318191764066,
dataset/44.png,False,-0.01,0.275,down,0,126,126,44,,,,,,,,,,,,,,,159.9004544000054,None,None,None,up,0.6066919000004418,159.9004544000054,None,,,,,,,,001,2020_Dec_05_1231,experiment,2020.2.8,59.933318191764066,
dataset/40.png,False,-0.01,0.25,down,0,127,127,40,,,,,,,,,,,,,,,161.05009460000292,None,None,None,up,0.6505378000001656,161.05009460000292,None,,,,,,,,001,2020_Dec_05_1231,experiment,2020.2.8,59.933318191764066,
dataset/83.png,False,0.05,0.175,up,0,128,128,83,,,,,,,,,,,,,,,162.23360620000312,None,None,None,down,0.8636014000003343,162.23360620000312,None,,,,,,,,001,2020_Dec_05_1231,experiment,2020.2.8,59.933318191764066,
dataset/82.png,False,0.05,0.175,up,0,129,129,82,,,,,,,,,,,,,,,163.6502488000042,None,None,None,down,0.5550352999998722,163.6502488000042,None,,,,,,,,001,2020_Dec_05_1231,experiment,2020.2.8,59.933318191764066,
dataset/165.png,True,-0.5,0.0,down,0,130,130,165,,,,,,,,,,,,,,,164.75013190000027,None,None,None,down,0.6077323000063188,164.75013190000027,None,,,,,,,,001,2020_Dec_05_1231,experiment,2020.2.8,59.933318191764066,
dataset/140.png,False,-0.1,0.225,down,0,131,131,140,,,,,,,,,,,,,,,165.90028080000047,None,None,None,down,0.5540208000020357,165.90028080000047,None,,,,,,,,001,2020_Dec_05_1231,experiment,2020.2.8,59.933318191764066,
dataset/16.png,False,-0.01,0.1,down,0,132,132,16,,,,,,,,,,,,,,,167.00023190000502,168.49878350000654,168.49878350000654,None,up,1.5485722000012174,167.00023190000502,None,,,,,,,,001,2020_Dec_05_1231,experiment,2020.2.8,59.933318191764066,
dataset/147.png,False,0.1,0.25,up,0,133,133,147,,,,,,,,,,,,,,,169.08323980000569,None,None,None,up,0.7146539999957895,169.08323980000569,None,,,,,,,,001,2020_Dec_05_1231,experiment,2020.2.8,59.933318191764066,
dataset/171.png,True,0.5,0.3,up,0,134,134,171,,,,,,,,,,,,,,,170.35035020000214,None,None,None,up,0.7734778000012739,170.35035020000214,None,,,,,,,,001,2020_Dec_05_1231,experiment,2020.2.8,59.933318191764066,
dataset/13.png,False,-0.01,0.075,down,0,135,135,13,,,,,,,,,,,,,,,171.68321470000228,None,None,None,down,0.6033955000020796,171.68321470000228,None,,,,,,,,001,2020_Dec_05_1231,experiment,2020.2.8,59.933318191764066,
dataset/110.png,False,0.1,0.025,up,0,136,136,110,,,,,,,,,,,,,,,172.8335378000047,None,None,None,up,0.6075256000040099,172.8335378000047,None,,,,,,,,001,2020_Dec_05_1231,experiment,2020.2.8,59.933318191764066,
dataset/14.png,False,0.01,0.075,up,0,137,137,14,,,,,,,,,,,,,,,173.9835813000027,None,None,None,up,0.7371505000046454,173.9835813000027,None,,,,,,,,001,2020_Dec_05_1231,experiment,2020.2.8,59.933318191764066,
dataset/136.png,False,-0.1,0.2,down,0,138,138,136,,,,,,,,,,,,,,,175.26666190000105,None,None,None,down,0.5543571999951382,175.26666190000105,None,,,,,,,,001,2020_Dec_05_1231,experiment,2020.2.8,59.933318191764066,
dataset/46.png,False,0.01,0.275,up,0,139,139,46,,,,,,,,,,,,,,,176.36646000000474,None,None,None,down,0.5624673000056646,176.36646000000474,None,,,,,,,,001,2020_Dec_05_1231,experiment,2020.2.8,59.933318191764066,
dataset/155.png,False,0.1,0.3,up,0,140,140,155,,,,,,,,,,,,,,,177.46636140000192,None,None,None,up,0.5819172999981674,177.46636140000192,None,,,,,,,,001,2020_Dec_05_1231,experiment,2020.2.8,59.933318191764066,
dataset/48.png,False,-0.01,0.3,down,0,141,141,48,,,,,,,,,,,,,,,178.58308090000355,None,None,None,down,0.7141573000044446,178.58308090000355,None,,,,,,,,001,2020_Dec_05_1231,experiment,2020.2.8,59.933318191764066,
dataset/57.png,False,-0.05,0.025,down,0,142,142,57,,,,,,,,,,,,,,,179.83331380000163,None,None,None,down,0.6391445999979624,179.83331380000163,None,,,,,,,,001,2020_Dec_05_1231,experiment,2020.2.8,59.933318191764066,
dataset/162.png,True,0.0,0.3,none,0,143,143,162,,,,,,,,,,,,,,,181.01667600000656,None,None,None,up,0.7465064999996684,181.01667600000656,None,,,,,,,,001,2020_Dec_05_1231,experiment,2020.2.8,59.933318191764066,
dataset/94.png,False,0.05,0.25,up,0,144,144,94,,,,,,,,,,,,,,,182.3166515000048,None,None,None,up,0.6089254999969853,182.3166515000048,None,,,,,,,,001,2020_Dec_05_1231,experiment,2020.2.8,59.933318191764066,
dataset/61.png,False,-0.05,0.05,down,0,145,145,61,,,,,,,,,,,,,,,183.46647210000083,None,None,None,down,0.49542659999860916,183.46647210000083,None,,,,,,,,001,2020_Dec_05_1231,experiment,2020.2.8,59.933318191764066,
dataset/129.png,False,-0.1,0.15,down,0,146,146,129,,,,,,,,,,,,,,,184.50012280000374,None,None,None,down,0.5208750000019791,184.50012280000374,None,,,,,,,,001,2020_Dec_05_1231,experiment,2020.2.8,59.933318191764066,
dataset/98.png,False,0.05,0.275,up,0,147,147,98,,,,,,,,,,,,,,,185.5832806000035,None,None,None,up,0.452948700003617,185.5832806000035,None,,,,,,,,001,2020_Dec_05_1231,experiment,2020.2.8,59.933318191764066,
dataset/0.png,False,-0.01,0.0,down,0,148,148,0,,,,,,,,,,,,,,,186.60008890000609,None,None,None,down,0.9081315000003087,186.60008890000609,None,,,,,,,,001,2020_Dec_05_1231,experiment,2020.2.8,59.933318191764066,
dataset/157.png,True,-0.0,0.0,none,0,149,149,157,,,,,,,,,,,,,,,188.0499087000062,189.5488847000015,189.5488847000015,None,up,2.4066846999994596,188.0499087000062,None,,,,,,,,001,2020_Dec_05_1231,experiment,2020.2.8,59.933318191764066,
dataset/55.png,False,0.05,0.0,up,0,150,150,55,,,,,,,,,,,,,,,191.00003460000153,None,None,None,up,0.6347066000016639,191.00003460000153,None,,,,,,,,001,2020_Dec_05_1231,experiment,2020.2.8,59.933318191764066,
dataset/137.png,False,-0.1,0.2,down,0,151,151,137,,,,,,,,,,,,,,,192.16647730000113,None,None,None,down,0.6053511999998591,192.16647730000113,None,,,,,,,,001,2020_Dec_05_1231,experiment,2020.2.8,59.933318191764066,
dataset/120.png,False,-0.1,0.1,down,0,152,152,120,,,,,,,,,,,,,,,193.3163171000051,None,None,None,down,0.5616571999998996,193.3163171000051,None,,,,,,,,001,2020_Dec_05_1231,experiment,2020.2.8,59.933318191764066,
dataset/145.png,False,-0.1,0.25,down,0,153,153,145,,,,,,,,,,,,,,,194.43281770000613,None,None,None,down,0.5484814000010374,194.43281770000613,None,,,,,,,,001,2020_Dec_05_1231,experiment,2020.2.8,59.933318191764066,
dataset/131.png,False,0.1,0.15,up,0,154,154,131,,,,,,,,,,,,,,,195.5161592000004,None,None,None,up,0.46363800000108313,195.5161592000004,None,,,,,,,,001,2020_Dec_05_1231,experiment,2020.2.8,59.933318191764066,
dataset/8.png,False,-0.01,0.05,down,0,155,155,8,,,,,,,,,,,,,,,196.5162169000032,None,None,None,down,0.5981918999968912,196.5162169000032,None,,,,,,,,001,2020_Dec_05_1231,experiment,2020.2.8,59.933318191764066,
dataset/132.png,False,-0.1,0.175,down,0,156,156,132,,,,,,,,,,,,,,,197.64948860000004,None,None,None,down,0.5721515999975963,197.64948860000004,None,,,,,,,,001,2020_Dec_05_1231,experiment,2020.2.8,59.933318191764066,
dataset/24.png,False,-0.01,0.15,down,0,157,157,24,,,,,,,,,,,,,,,198.76626390000456,None,None,None,down,0.760631100005412,198.76626390000456,None,,,,,,,,001,2020_Dec_05_1231,experiment,2020.2.8,59.933318191764066,
dataset/168.png,True,-0.5,0.3,down,0,158,158,168,,,,,,,,,,,,,,,200.06614470000204,None,None,None,down,0.5893028999998933,200.06614470000204,None,,,,,,,,001,2020_Dec_05_1231,experiment,2020.2.8,59.933318191764066,
dataset/167.png,True,0.5,0.0,up,0,159,159,167,,,,,,,,,,,,,,,201.19984820000536,None,None,None,up,0.5718204000004334,201.19984820000536,None,,,,,,,,001,2020_Dec_05_1231,experiment,2020.2.8,59.933318191764066,
dataset/17.png,False,-0.01,0.1,down,0,160,160,17,,,,,,,,,,,,,,,202.31601030000456,None,None,None,down,0.5535248999949545,202.31601030000456,None,,,,,,,,001,2020_Dec_05_1231,experiment,2020.2.8,59.933318191764066,
dataset/141.png,False,-0.1,0.225,down,0,161,161,141,,,,,,,,,,,,,,,203.4159190000064,None,None,None,down,0.5279660000014701,203.4159190000064,None,,,,,,,,001,2020_Dec_05_1231,experiment,2020.2.8,59.933318191764066,
dataset/49.png,False,-0.01,0.3,down,0,162,162,49,,,,,,,,,,,,,,,204.48283160000574,None,None,None,up,0.7136659000025247,204.48283160000574,None,,,,,,,,001,2020_Dec_05_1231,experiment,2020.2.8,59.933318191764066,
dataset/156.png,True,-0.0,0.0,none,0,163,163,156,,,,,,,,,,,,,,,205.73284250000142,None,None,None,down,0.5570548999967286,205.73284250000142,None,,,,,,,,001,2020_Dec_05_1231,experiment,2020.2.8,59.933318191764066,
dataset/67.png,False,0.05,0.075,up,0,164,164,67,,,,,,,,,,,,,,,206.84961000000476,None,None,None,up,0.6411101999983657,206.84961000000476,None,,,,,,,,001,2020_Dec_05_1231,experiment,2020.2.8,59.933318191764066,
dataset/89.png,False,-0.05,0.225,down,0,165,165,89,,,,,,,,,,,,,,,208.0491933000012,None,None,None,down,0.5695166000004974,208.0491933000012,None,,,,,,,,001,2020_Dec_05_1231,experiment,2020.2.8,59.933318191764066,
dataset/68.png,False,-0.05,0.1,down,0,166,166,68,,,,,,,,,,,,,,,209.1660394000064,None,None,None,down,0.48225280000042403,209.1660394000064,None,,,,,,,,001,2020_Dec_05_1231,experiment,2020.2.8,59.933318191764066,
dataset/4.png,False,-0.01,0.025,down,0,167,167,4,,,,,,,,,,,,,,,210.1827720000001,None,None,None,down,0.7714566000067862,210.1827720000001,None,,,,,,,,001,2020_Dec_05_1231,experiment,2020.2.8,59.933318191764066,
dataset/135.png,False,0.1,0.175,up,0,168,168,135,,,,,,,,,,,,,,,211.49947590000374,None,None,None,down,0.675110099997255,211.49947590000374,None,,,,,,,,001,2020_Dec_05_1231,experiment,2020.2.8,59.933318191764066,
dataset/108.png,False,-0.1,0.025,down,0,169,169,108,,,,,,,,,,,,,,,212.7324571000063,None,None,None,down,0.5427590999970562,212.7324571000063,None,,,,,,,,001,2020_Dec_05_1231,experiment,2020.2.8,59.933318191764066,
dataset/69.png,False,-0.05,0.1,down,0,170,170,69,,,,,,,,,,,,,,,213.8326803000018,None,None,None,down,0.46466510000027483,213.8326803000018,None,,,,,,,,001,2020_Dec_05_1231,experiment,2020.2.8,59.933318191764066,
dataset/51.png,False,0.01,0.3,up,0,171,171,51,,,,,,,,,,,,,,,214.8326698000019,None,None,None,down,0.8154142000057618,214.8326698000019,None,,,,,,,,001,2020_Dec_05_1231,experiment,2020.2.8,59.933318191764066,
,,,,,,,,,,,,,,,,,,,,,,,,,,,,,,,215.66693560000567,None,return,1.136638399999356,215.66693560000567,None,,001,2020_Dec_05_1231,experiment,2020.2.8,59.933318191764066,
